time,seconds_elapsed,z,y,x
1712251711747218700,0.17021875,0.03771018981933594,-0.003706604242324829,-0.010655365884304047
1712251711765992000,0.188991943359375,0.11212348937988281,0.0004497915506362915,-0.022258438169956207
1712251711784765000,0.207764892578125,0.02064037322998047,-0.007980763912200928,0.009211555123329163
1712251711803538200,0.2265380859375,-0.06033897399902344,-0.000800207257270813,0.0023128166794776917
1712251711822311400,0.2453115234375,0.012169837951660156,0.004265278577804565,-0.003997907042503357
1712251711841084400,0.26408447265625,0.08464813232421875,0.0017011463642120361,0.003816545009613037
1712251711859857700,0.282857666015625,0.013607025146484375,0.0025855451822280884,-0.013807021081447601
1712251711878630700,0.301630615234375,-0.053348541259765625,-0.007913827896118164,-0.0057387202978134155
1712251711897404000,0.32040380859375,-0.011858940124511719,-0.00668865442276001,0.01708381623029709
1712251711916177200,0.33917724609375,0.08041667938232422,0.009799972176551819,0.0017213523387908936
1712251711934950100,0.3579501953125,0.03310585021972656,-0.0010786354541778564,0.021481916308403015
1712251711953723400,0.376723388671875,-0.04347705841064453,0.0013615787029266357,0.011466972529888153
1712251711972496400,0.395496337890625,-0.01898956298828125,0.0010388195514678955,0.0012157559394836426
1712251711991269600,0.41426953125,-0.010370254516601562,-0.005662500858306885,0.01963929831981659
1712251712010043000,0.43304296875,0.09225273132324219,0.017523467540740967,0.004939772188663483
1712251712028816000,0.45181591796875,0.05202960968017578,0.007992684841156006,-0.011307790875434875
1712251712047589000,0.470589111328125,-0.11911964416503906,-0.010482221841812134,-0.004571601748466492
1712251712066362000,0.489362060546875,0.05204200744628906,-0.0030661076307296753,0.01992308348417282
1712251712085135400,0.50813525390625,0.14148521423339844,0.009327113628387451,0.010408766567707062
1712251712103908600,0.52690869140625,0.18199729919433594,-0.004328832030296326,0.040947578847408295
1712251712122681600,0.545681640625,-0.18987274169921875,-0.006481632590293884,-0.04002949595451355
1712251712141454800,0.564454833984375,-0.054711341857910156,-0.006753310561180115,-0.008626937866210938
1712251712160227800,0.583227783203125,0.19775390625,-0.011815100908279419,0.07140147686004639
1712251712179001000,0.6020009765625,-0.21790027618408203,-1.9165540933609009,-1.4146071672439575
1712251712197774300,0.6207744140625,-0.17218780517578125,0.34225672483444214,1.0096259117126465
1712251712216547300,0.63954736328125,0.04790306091308594,-0.7785705924034119,1.1099576950073242
1712251712235320600,0.658320556640625,0.05970001220703125,-0.31106945872306824,1.5921881198883057
1712251712254093600,0.677093505859375,-0.06395339965820312,1.7907581329345703,6.263020038604736
1712251712272866800,0.69586669921875,-0.13374900817871094,2.0066542625427246,9.760499954223633
1712251712291640000,0.71464013671875,-0.11021041870117188,-0.6333144307136536,8.821441650390625
1712251712310413000,0.7334130859375,0.04015350341796875,0.6913968324661255,9.04816722869873
1712251712329186300,0.752186279296875,-0.06286811828613281,0.2337573766708374,8.234908103942871
1712251712347959600,0.77095947265625,0.027368545532226562,-0.621880292892456,3.180067539215088
1712251712366732500,0.789732666015625,0.825831413269043,-1.5877286195755005,-5.260020732879639
1712251712385505800,0.808505859375,-5.356224536895752,0.9852613806724548,1.2005128860473633
1712251712404278800,0.82727880859375,-1.4115581512451172,-2.858863592147827,-8.076502799987793
1712251712423052000,0.846052001953125,0.38822078704833984,-2.051907539367676,-11.21357250213623
1712251712441825300,0.8648251953125,0.00024890899658203125,-0.3039369285106659,-2.8175580501556396
1712251712460598300,0.883598388671875,0.5097723007202148,0.1291990578174591,-6.97116756439209
1712251712479371500,0.90237158203125,0.5902528762817383,-0.11641478538513184,-10.134077072143555
1712251712498144800,0.921144775390625,-0.23509883880615234,-0.63387131690979,-10.614757537841797
1712251712516917800,0.939917724609375,-0.37079620361328125,-1.1463688611984253,-6.096579074859619
1712251712535691000,0.95869091796875,-0.1916036605834961,-0.8047773838043213,-1.163759708404541
1712251712554464000,0.977464111328125,-0.014058113098144531,0.967187762260437,-0.4608697295188904
1712251712573237200,0.9962373046875,0.45158958435058594,-0.3275291919708252,-2.6262524127960205
1712251712592010500,1.015010498046875,-0.43151378631591797,-0.46754953265190125,-4.17631721496582
1712251712610783500,1.033783447265625,-0.18328857421875,-2.009752035140991,-6.8821916580200195
1712251712629556700,1.052556640625,-0.20425796508789062,-2.910456657409668,-9.478849411010742
1712251712648330000,1.071330078125,-2.276869773864746,-2.154696226119995,-8.35999870300293
1712251712667103000,1.09010302734375,-4.784325122833252,0.37208136916160583,-4.083019256591797
1712251712685876200,1.108876220703125,0.3661813735961914,-1.2478584051132202,-5.71523380279541
1712251712704649500,1.1276494140625,0.29844188690185547,-1.1690049171447754,-5.590929985046387
1712251712723422500,1.14642236328125,0.1705312728881836,-1.098425269126892,-2.56469988822937
1712251712742195700,1.16519580078125,0.06897830963134766,-0.5110347270965576,-0.4580037593841553
1712251712760969000,1.183968994140625,0.14084339141845703,-1.4964863061904907,0.5236538648605347
1712251712779742000,1.202741943359375,0.4897298812866211,-1.3854844570159912,3.286273956298828
1712251712798515200,1.22151513671875,0.10099411010742188,-0.6934056878089905,5.403614521026611
1712251712817288400,1.240288330078125,-0.0469207763671875,-0.11630696058273315,5.551413536071777
1712251712836061400,1.2590615234375,-0.2388763427734375,-0.4794497489929199,6.129591941833496
1712251712854834700,1.277834716796875,-1.0906286239624023,7.063690185546875,20.723726272583008
1712251712873608000,1.29660791015625,-2.9846553802490234,-4.132054328918457,-8.25509262084961
1712251712892381000,1.315380859375,1.5256328582763672,-0.014580488204956055,7.364088535308838
1712251712911154200,1.334154296875,-0.14987468719482422,0.8870635628700256,15.680827140808105
1712251712929927200,1.35292724609375,-0.7929906845092773,-1.0703821182250977,0.5834243297576904
1712251712948700400,1.371700439453125,0.3028078079223633,0.9985470175743103,7.421533107757568
1712251712967473700,1.3904736328125,0.21460914611816406,0.6389930844306946,8.106821060180664
1712251712986246700,1.40924658203125,-0.27522945404052734,0.19845464825630188,4.50698709487915
1712251713005020000,1.42802001953125,0.05279064178466797,0.3828738331794739,3.301312208175659
1712251713023793200,1.446793212890625,0.2446126937866211,0.11854967474937439,4.241963863372803
1712251713042566100,1.465566162109375,-0.28783226013183594,-0.058968231081962585,4.667928695678711
1712251713061339400,1.48433935546875,-0.05396747589111328,-0.4508669376373291,2.954590082168579
1712251713080112600,1.503112548828125,-0.043529510498046875,-0.24822092056274414,2.7610206604003906
1712251713098885600,1.5218857421875,0.2144031524658203,-0.646136999130249,2.0398359298706055
1712251713117659000,1.540658935546875,-0.13293170928955078,-1.070927619934082,2.10270619392395
1712251713136432000,1.55943212890625,-0.0487060546875,-1.0437684059143066,1.8545944690704346
1712251713155205400,1.578205322265625,0.04147052764892578,-1.563109040260315,-0.003081589937210083
1712251713173978400,1.596978271484375,0.11941909790039062,-2.1242361068725586,-2.3617546558380127
1712251713192751600,1.615751708984375,0.29325294494628906,-2.518996477127075,-3.6883504390716553
1712251713211524900,1.63452490234375,-0.3354177474975586,-2.5250000953674316,-2.473541259765625
1712251713230297900,1.6532978515625,-0.1143331527709961,-2.4751062393188477,-5.045526504516602
1712251713249071000,1.672071044921875,0.17233848571777344,-1.6458653211593628,-9.875717163085938
1712251713267844000,1.690843994140625,0.2456064224243164,-1.146223783493042,-12.411615371704102
1712251713286617300,1.709617431640625,0.039554595947265625,0.7500073313713074,-8.229254722595215
1712251713305390600,1.728390625,-0.14125823974609375,3.1433167457580566,-1.9627866744995117
1712251713324163600,1.74716357421875,-0.032845497131347656,0.14063940942287445,0.10600197315216064
1712251713342936800,1.765936767578125,0.027260780334472656,3.779336929321289,-0.4989764988422394
1712251713361710000,1.7847099609375,0.026885032653808594,-0.7358141541481018,-7.961645603179932
1712251713380483000,1.803483154296875,0.07682037353515625,-1.0567885637283325,-7.21691370010376
1712251713399256300,1.82225634765625,0.22107887268066406,-0.7420185804367065,-4.827888488769531
1712251713418029600,1.841029541015625,-0.0225372314453125,-1.029240369796753,-3.5844898223876953
1712251713436802800,1.859802734375,-0.10538387298583984,-1.3959051370620728,-3.8080008029937744
1712251713455575800,1.878575927734375,-0.11162662506103516,-1.696930170059204,-5.077322959899902
1712251713474349000,1.89734912109375,0.2689199447631836,-1.78475821018219,-4.055118083953857
1712251713493122300,1.916122314453125,-0.13254833221435547,-1.574337124824524,-2.237977981567383
1712251713511895300,1.934895263671875,0.06353759765625,-1.322269082069397,-1.0460400581359863
1712251713530668500,1.95366845703125,0.050853729248046875,-1.3529775142669678,-1.2280288934707642
1712251713549441800,1.97244189453125,-0.2171182632446289,-0.4995247721672058,1.5346119403839111
1712251713568214800,1.99121484375,0.09722518920898438,-0.9531577825546265,2.826202154159546
1712251713586988000,2.009988037109375,-0.16268253326416016,-0.10435693711042404,5.059286117553711
1712251713605761300,2.02876123046875,-0.1345806121826172,-0.3177657127380371,4.482725143432617
1712251713624534300,2.0475341796875,0.1397533416748047,-0.959230899810791,4.729170799255371
1712251713643307500,2.0663076171875,0.04792308807373047,-0.24184063076972961,8.774311065673828
1712251713662080800,2.085080810546875,0.1396017074584961,0.7114025354385376,11.992009162902832
1712251713680853800,2.103853759765625,-0.021945953369140625,1.5297257900238037,11.319409370422363
1712251713699627000,2.122626953125,-0.007947921752929688,-2.629016399383545,0.6677231192588806
1712251713718400300,2.141400146484375,0.07625102996826172,-0.035352081060409546,6.70291805267334
1712251713737173200,2.16017333984375,-0.15712547302246094,0.38336288928985596,10.126687049865723
1712251713755946500,2.178946533203125,0.13833999633789062,0.6249995231628418,9.390589714050293
1712251713774719700,2.1977197265625,-0.14623355865478516,1.0283381938934326,8.33941650390625
1712251713793493000,2.216492919921875,0.010438919067382812,1.422642469406128,8.116433143615723
1712251713812266000,2.235265869140625,0.0016651153564453125,0.3312912881374359,7.405571460723877
1712251713831039200,2.254039306640625,-0.1584033966064453,-0.33600476384162903,5.708228588104248
1712251713849812200,2.272812255859375,0.0878591537475586,-1.0051240921020508,1.4788150787353516
1712251713868585500,2.29158544921875,0.027069091796875,-1.4384775161743164,-0.8069620132446289
1712251713887358700,2.310358642578125,-0.04637622833251953,-1.9779695272445679,-3.4561145305633545
1712251713906131700,2.329131591796875,0.3609275817871094,-2.904963493347168,-9.131885528564453
1712251713924905000,2.347905029296875,0.21230125427246094,-2.362278461456299,-10.194377899169922
1712251713943678200,2.36667822265625,-0.026510238647460938,-2.071995735168457,-9.705808639526367
1712251713962451500,2.385451416015625,0.07298755645751953,-1.7642203569412231,-10.520234107971191
1712251713981224400,2.404224365234375,0.21498966217041016,-1.678554892539978,-12.393072128295898
1712251713999997700,2.422997802734375,0.10416984558105469,1.1948301792144775,-1.0543981790542603
1712251714018771000,2.44177099609375,-0.060516357421875,-1.0027501583099365,-1.8693698644638062
1712251714037544000,2.4605439453125,0.04487323760986328,-0.21462169289588928,-4.5036702156066895
1712251714056317200,2.479317138671875,0.19730281829833984,-1.5971593856811523,-6.485726833343506
1712251714075090400,2.49809033203125,0.07663822174072266,-1.4291373491287231,-6.438958644866943
1712251714093863400,2.516863525390625,-0.03621864318847656,-1.3199622631072998,-6.578497409820557
1712251714112636700,2.53563671875,0.000324249267578125,-0.9238177537918091,-4.108217239379883
1712251714131410000,2.554409912109375,0.13209056854248047,-0.5741389989852905,-1.8834798336029053
1712251714150183200,2.57318310546875,0.01948261260986328,-0.26521092653274536,-1.4653633832931519
1712251714168956200,2.5919560546875,-0.12464714050292969,-0.24933265149593353,-2.053772449493408
1712251714187729400,2.6107294921875,-0.27469730377197266,-1.1931346654891968,-3.348982095718384
1712251714206502700,2.629502685546875,0.07950687408447266,-0.6133272647857666,-0.38640642166137695
1712251714225275600,2.648275634765625,0.30874156951904297,-0.6234462261199951,0.09428271651268005
1712251714244049000,2.667048828125,-0.028449058532714844,-0.697163462638855,0.5300633311271667
1712251714262822100,2.685822265625,-0.025839805603027344,-0.938899040222168,2.3879520893096924
1712251714281595100,2.70459521484375,0.08708858489990234,-0.24744543433189392,4.935916900634766
1712251714300368400,2.723368408203125,0.15482616424560547,-0.04863005876541138,6.15217924118042
1712251714319141600,2.7421416015625,-0.24646854400634766,0.4919722080230713,9.938748359680176
1712251714337914600,2.76091455078125,-0.0880136489868164,1.3012125492095947,12.378571510314941
1712251714356688000,2.77968798828125,-0.0898590087890625,-0.17054827511310577,11.175896644592285
1712251714375461000,2.798461181640625,0.14166259765625,-0.7689423561096191,-0.4341934621334076
1712251714394234400,2.817234375,0.2726144790649414,0.4701365530490875,4.479299545288086
1712251714413007400,2.83600732421875,0.06163311004638672,-0.38251227140426636,3.5681509971618652
1712251714431780600,2.854780517578125,0.0691070556640625,0.06077730655670166,4.307531833648682
1712251714450553900,2.873553955078125,-0.0766754150390625,-0.2932801842689514,4.850961208343506
1712251714469326800,2.892326904296875,0.02830219268798828,0.277907133102417,7.0272016525268555
1712251714488100000,2.91110009765625,-0.033802032470703125,0.1916309893131256,5.388238906860352
1712251714506873300,2.929873291015625,0.05231475830078125,-0.22305092215538025,3.637057304382324
1712251714525646300,2.948646240234375,-0.11419296264648438,-0.2681560516357422,1.730789065361023
1712251714544419600,2.967419677734375,-0.17501068115234375,-0.25536462664604187,0.18821586668491364
1712251714563192800,2.98619287109375,0.23814678192138672,-0.8534433841705322,-2.6247055530548096
1712251714581965800,3.0049658203125,-0.041975975036621094,-0.430869996547699,-3.592074155807495
1712251714600739000,3.023739013671875,-0.06554603576660156,-0.22940650582313538,-2.525634527206421
1712251714619512300,3.04251220703125,0.048854827880859375,0.09579762816429138,-1.8851206302642822
1712251714638285600,3.06128564453125,0.060482025146484375,0.11509986221790314,-2.7920448780059814
1712251714657058600,3.08005859375,-0.0016736984252929688,-0.10043692588806152,-3.1064248085021973
1712251714675831800,3.098831787109375,-0.027892112731933594,-0.11929191648960114,-2.760817527770996
1712251714694605000,3.11760498046875,0.08395099639892578,-0.24145284295082092,-1.4974437952041626
1712251714713378000,3.1363779296875,0.08825492858886719,-0.27222931385040283,-3.478233575820923
1712251714732151300,3.1551513671875,-0.012391090393066406,-0.6862319707870483,-5.267112731933594
1712251714750924500,3.173924560546875,0.01873016357421875,-0.47171878814697266,-6.093461036682129
1712251714769697500,3.192697509765625,0.0926666259765625,0.014214947819709778,0.10053333640098572
1712251714788470800,3.211470703125,0.010865211486816406,0.542782723903656,0.7086629271507263
1712251714807244000,3.230244140625,-0.001110076904296875,-0.6275195479393005,-4.056417942047119
1712251714826017300,3.249017333984375,0.001293182373046875,-1.0725631713867188,-8.146825790405273
1712251714844790300,3.267790283203125,0.1300344467163086,-0.8505676984786987,-8.424288749694824
1712251714863563500,3.2865634765625,0.15343952178955078,-0.7845367193222046,-6.918038845062256
1712251714882336800,3.305336669921875,0.007906913757324219,-2.3000173568725586,-6.759008884429932
1712251714901109800,3.32410986328125,0.14418315887451172,-0.9228549003601074,-3.9477574825286865
1712251714919883000,3.342883056640625,0.20647716522216797,-0.479562371969223,-2.616849899291992
1712251714938656300,3.36165625,0.8803367614746094,-0.29059094190597534,-0.9374010562896729
1712251714957429200,3.38042919921875,0.2714958190917969,-0.6102406978607178,0.3657970130443573
1712251714976202500,3.399202392578125,-0.43658447265625,-0.6906499862670898,4.1483612060546875
1712251714994975700,3.417975830078125,0.8400392532348633,-0.09362193942070007,7.347629547119141
1712251715013748700,3.436748779296875,0.04013347625732422,-0.26574164628982544,8.386038780212402
1712251715032522000,3.45552197265625,-0.032233238220214844,0.30675244331359863,10.496353149414062
1712251715051295200,3.474295166015625,-0.16111278533935547,0.3034735918045044,10.115289688110352
1712251715070068500,3.493068359375,0.28562068939208984,-0.6982742547988892,4.24332332611084
1712251715088841500,3.511841552734375,-0.1614236831665039,-0.7365936040878296,-0.281329870223999
1712251715107614700,3.53061474609375,-0.22806072235107422,-1.717980146408081,4.768532752990723
1712251715126388000,3.549387939453125,0.08252906799316406,-0.5417987108230591,3.7024567127227783
1712251715145161200,3.5681611328125,0.04355621337890625,-1.3776434659957886,2.691612958908081
1712251715163934200,3.586934326171875,-0.1050872802734375,-2.2963571548461914,1.1091363430023193
1712251715182707500,3.60570751953125,0.24857234954833984,-1.1985399723052979,1.0814555883407593
1712251715201480400,3.62448046875,0.11206912994384766,-1.3317375183105469,-0.2650851011276245
1712251715220253700,3.643253662109375,0.06464958190917969,-1.2101370096206665,-0.5318020582199097
1712251715239027000,3.66202685546875,0.2201089859008789,-1.2198742628097534,-0.09288300573825836
1712251715257800200,3.68080029296875,-0.25632476806640625,-0.690131425857544,-0.7226055860519409
1712251715276573200,3.6995732421875,0.6166019439697266,0.8579398989677429,-0.8387528657913208
1712251715295346400,3.718346435546875,1.6473932266235352,0.6342039108276367,-1.3694181442260742
1712251715314119700,3.73711962890625,0.36447811126708984,2.334001064300537,0.6176959276199341
1712251715332893000,3.755892822265625,0.017789840698242188,2.6939358711242676,-1.1163009405136108
1712251715351666000,3.774666015625,0.05177783966064453,3.2718091011047363,-3.3148422241210938
1712251715370439200,3.793439208984375,-0.40196990966796875,2.3584954738616943,-5.58480978012085
1712251715389212400,3.81221240234375,0.11278057098388672,1.0361979007720947,0.2411656677722931
1712251715407985400,3.8309853515625,0.024097442626953125,6.237131118774414,-1.2114828824996948
1712251715426758700,3.849758544921875,0.1005411148071289,3.5601894855499268,-2.591481924057007
1712251715445532000,3.868531982421875,0.4955720901489258,5.088605880737305,-1.9342445135116577
1712251715464305000,3.887304931640625,-0.09395503997802734,4.983659744262695,-0.48329198360443115
1712251715483078100,3.906078125,-1.116668701171875,4.442805290222168,-0.19702714681625366
1712251715501851400,3.924851318359375,0.19351768493652344,3.8017842769622803,-0.021881282329559326
1712251715520624600,3.943624755859375,-1.976529598236084,1.6584211587905884,-0.1399543285369873
1712251715539397600,3.962397705078125,0.23819446563720703,4.102055072784424,1.7541180849075317
1712251715558171000,3.9811708984375,-0.029870033264160156,0.7651934623718262,1.9169527292251587
1712251715576944000,3.999944091796875,-0.17877769470214844,-1.9214081764221191,3.49794864654541
1712251715595717000,4.018717041015625,0.10304641723632812,-3.1362464427948,4.063745975494385
1712251715614490400,4.037490478515625,-0.2270965576171875,-5.727375030517578,1.9249160289764404
1712251715633263600,4.056263671875,0.4151763916015625,-8.282968521118164,-0.6997670531272888
1712251715652036900,4.075036865234375,0.038974761962890625,-10.022793769836426,-1.4744607210159302
1712251715670809900,4.093809814453125,0.0620880126953125,-9.4196138381958,-2.9155919551849365
1712251715689583000,4.1125830078125,0.03311347961425781,-0.4134335517883301,0.2174205780029297
1712251715708356400,4.1313564453125,0.14473438262939453,-9.411819458007812,1.793218970298767
1712251715727129600,4.150129638671875,0.0673980712890625,-6.4173431396484375,0.40808022022247314
1712251715745902600,4.168902587890625,0.04075908660888672,-5.676888465881348,-0.8435405492782593
1712251715764675800,4.18767578125,0.14776611328125,-5.040693283081055,-2.517954111099243
1712251715783449000,4.206448974609375,-0.04117774963378906,-3.58864426612854,-1.9812018871307373
1712251715802222000,4.22522216796875,-0.2562065124511719,-3.0651161670684814,-0.8393003940582275
1712251715820995300,4.243995361328125,-0.20621109008789062,-0.6911031007766724,0.5510859489440918
1712251715839768600,4.2627685546875,-1.2515192031860352,0.17060263454914093,0.1061190664768219
1712251715858541600,4.28154150390625,-0.24429702758789062,3.6438868045806885,0.7871953248977661
1712251715877314800,4.300314697265625,2.4047374725341797,6.51688289642334,1.5209792852401733
1712251715896088000,4.319088134765625,6.419245719909668,6.0926127433776855,-1.6626393795013428
1712251715914861300,4.337861328125,-1.0472793579101562,7.511552810668945,0.9882630109786987
1712251715933634300,4.35663427734375,-0.3096494674682617,6.913057804107666,-0.07153692841529846
1712251715952407600,4.375407470703125,-0.12322235107421875,7.4304585456848145,1.2902661561965942
1712251715971180800,4.394180908203125,-0.42038822174072266,3.9116427898406982,-0.2977151870727539
1712251715989953800,4.412953857421875,0.3635578155517578,8.460031509399414,-1.7200313806533813
1712251716008727000,4.43172705078125,-0.8217849731445312,6.039389610290527,0.9291955232620239
1712251716027500300,4.450500244140625,0.3190155029296875,5.828407287597656,2.133206367492676
1712251716046273500,4.4692734375,3.0497255325317383,6.0692291259765625,1.4641426801681519
1712251716065046500,4.488046630859375,0.4419975280761719,2.729940414428711,1.632499098777771
1712251716083819800,4.50681982421875,0.5466680526733398,2.4465579986572266,0.6204959154129028
1712251716102593000,4.525593017578125,-0.5560503005981445,0.6595566868782043,0.9375950694084167
1712251716121366300,4.5443662109375,0.32134151458740234,-2.030332565307617,1.0769453048706055
1712251716140139300,4.56313916015625,0.08469486236572266,-4.783980369567871,1.5303819179534912
1712251716158912500,4.58191259765625,0.18017959594726562,-7.6280927658081055,0.6003482341766357
1712251716177685800,4.600685791015625,0.09542083740234375,-9.994059562683105,-1.0669225454330444
1712251716196458800,4.619458740234375,0.21634769439697266,-10.976319313049316,-3.393416166305542
1712251716215232000,4.63823193359375,0.17462158203125,-2.259296178817749,-3.170334815979004
1712251716234005200,4.657005126953125,0.14978885650634766,-13.943085670471191,0.4795471429824829
1712251716252778500,4.675778564453125,0.03210639953613281,-7.378951072692871,-1.4856722354888916
1712251716271551500,4.694551513671875,0.017637252807617188,-5.222395420074463,-1.8421001434326172
1712251716290324700,4.71332470703125,0.1778097152709961,-3.9029245376586914,0.05475236475467682
1712251716309098000,4.732097900390625,0.1077890396118164,-2.9116945266723633,1.5782618522644043
1712251716327871000,4.75087109375,1.380894660949707,-1.7820533514022827,1.7103075981140137
1712251716346644200,4.769644287109375,0.8668088912963867,2.1276137828826904,-0.901003360748291
1712251716365417500,4.78841748046875,-1.077500343322754,3.7683138847351074,-1.0800843238830566
1712251716384190700,4.807190673828125,-8.259103775024414,3.578817367553711,-2.1472420692443848
1712251716402963700,4.825963623046875,-2.9418110847473145,7.512246608734131,-1.0142656564712524
1712251716421737000,4.844737060546875,-0.7787408828735352,7.521235466003418,1.2534263134002686
1712251716440510200,4.86351025390625,0.006298065185546875,8.271042823791504,1.782601237297058
1712251716459283200,4.882283203125,-0.24739646911621094,6.561655521392822,4.278937339782715
1712251716478056400,4.901056396484375,-0.20587444305419922,7.2264227867126465,-0.5842641592025757
1712251716496829700,4.91982958984375,-0.08539295196533203,7.858208656311035,-0.8946295976638794
1712251716515602700,4.938602783203125,-1.1636972427368164,6.18439245223999,0.82970130443573
1712251716534376000,4.9573759765625,-0.19818496704101562,5.853437900543213,1.0372804403305054
1712251716553149200,4.976149169921875,2.011826515197754,4.754299163818359,0.7378286719322205
1712251716571922400,4.99492236328125,-0.009012222290039062,2.2019121646881104,0.048476919531822205
1712251716590695400,5.0136953125,0.16960525512695312,1.6672098636627197,-0.29146456718444824
1712251716609468700,5.03246875,-0.49650096893310547,-1.0615742206573486,0.19249869883060455
1712251716628242000,5.051241943359375,0.31046104431152344,-2.0485289096832275,0.37706661224365234
1712251716647015200,5.07001513671875,0.08108043670654297,-4.41880464553833,1.786293387413025
1712251716665788200,5.0887880859375,-0.036670684814453125,-6.307000160217285,2.83111572265625
1712251716684561400,5.1075615234375,0.08894824981689453,-8.689349174499512,2.438511371612549
1712251716703334700,5.126334716796875,0.15059757232666016,-9.294730186462402,-1.6493221521377563
1712251716722107600,5.145107666015625,0.17168235778808594,-5.706756114959717,-7.472607612609863
1712251716740881000,5.163880859375,0.21362781524658203,-8.154583930969238,1.1321773529052734
1712251716759654100,5.182654052734375,0.07883930206298828,-7.875340938568115,-0.0452580451965332
1712251716778427400,5.201427490234375,0.01902294158935547,-7.1241302490234375,-3.443145751953125
1712251716797200400,5.220200439453125,-0.04073619842529297,-6.718091011047363,-3.3429481983184814
1712251716815973600,5.2389736328125,0.39361000061035156,-5.138235569000244,-0.30287885665893555
1712251716834747000,5.257746826171875,0.5525226593017578,-1.4095640182495117,2.76094651222229
1712251716853520000,5.276519775390625,0.20397377014160156,2.1029670238494873,5.4965996742248535
1712251716872293000,5.295293212890625,-0.2184314727783203,4.253456115722656,5.793914794921875
1712251716891066400,5.31406640625,-0.155487060546875,3.409254312515259,1.3204069137573242
1712251716909839600,5.332839599609375,-7.489735126495361,1.8894530534744263,-3.0140297412872314
1712251716928612600,5.351612548828125,-2.213919162750244,4.25632905960083,-3.215059995651245
1712251716947385900,5.3703857421875,0.027654647827148438,5.3191304206848145,-3.2569222450256348
1712251716966159000,5.3891591796875,0.15935325622558594,5.732015609741211,-2.7345380783081055
1712251716984932400,5.407932373046875,-0.10382270812988281,5.844732284545898,-0.20039916038513184
1712251717003705300,5.426705322265625,0.12689590454101562,5.789865016937256,4.056276321411133
1712251717022478600,5.445478515625,-0.2954902648925781,5.434532165527344,-0.22347408533096313
1712251717041251800,5.464251953125,-0.14569950103759766,7.240607261657715,-2.5294623374938965
1712251717060025000,5.483025146484375,-0.5364446640014648,4.875497341156006,-2.0302538871765137
1712251717078798000,5.501798095703125,-0.5544519424438477,4.80252742767334,0.5487337708473206
1712251717097571300,5.5205712890625,-0.6133852005004883,4.271288871765137,0.81471186876297
1712251717116344600,5.539344482421875,-5.158848285675049,3.057248830795288,0.9351931214332581
1712251717135117800,5.558117919921875,0.09236431121826172,3.2745144367218018,1.8930816650390625
1712251717153890800,5.576890869140625,-0.28929615020751953,1.2928684949874878,1.2221819162368774
1712251717172664000,5.5956640625,0.30269908905029297,-0.8211784362792969,2.2270166873931885
1712251717191437300,5.614437255859375,0.00290679931640625,-0.26805853843688965,0.5649299621582031
1712251717210210300,5.633210205078125,0.06935405731201172,-2.922182083129883,-0.5887000560760498
1712251717228983600,5.651983642578125,0.07887458801269531,-6.833436012268066,1.156078815460205
1712251717247756800,5.6707568359375,-0.138702392578125,-9.232132911682129,2.52388072013855
1712251717266530000,5.689530029296875,0.2739744186401367,-10.880141258239746,-1.5537899732589722
1712251717285303000,5.708302978515625,0.33715152740478516,-6.886890411376953,-7.4925642013549805
1712251717304076300,5.727076171875,0.0995798110961914,-9.559969902038574,0.5727828145027161
1712251717322849500,5.745849609375,-0.027375221252441406,-6.897439956665039,-0.6086359024047852
1712251717341622500,5.76462255859375,-0.03664398193359375,-6.057643890380859,-2.058115243911743
1712251717360395800,5.783395751953125,0.292449951171875,-5.914089202880859,-1.2746930122375488
1712251717379169000,5.8021689453125,-0.048206329345703125,-3.866848945617676,-0.4411073923110962
1712251717397942300,5.8209423828125,-0.1624002456665039,-2.0737054347991943,-0.704743504524231
1712251717416715500,5.839715576171875,0.05327606201171875,0.667770266532898,-1.146965503692627
1712251717435488500,5.858488525390625,-0.25967979431152344,1.4868460893630981,0.9707419276237488
1712251717454261800,5.87726171875,0.13861656188964844,4.052448749542236,1.079576849937439
1712251717473035000,5.896034912109375,-0.32947444915771484,3.512014389038086,0.48546379804611206
1712251717491808000,5.91480810546875,1.9027652740478516,5.133082866668701,0.3491700291633606
1712251717510581200,5.933581298828125,6.271747589111328,5.635725975036621,0.25042593479156494
1712251717529354500,5.9523544921875,0.4149198532104492,7.570633888244629,1.376416563987732
1712251717548127700,5.971127685546875,-0.4209012985229492,7.615920066833496,2.5621635913848877
1712251717566900700,5.989900634765625,-0.42182445526123047,3.329404830932617,0.8085362911224365
1712251717585674000,6.008674072265625,0.7295408248901367,3.4305975437164307,-0.018350347876548767
1712251717604447200,6.027447265625,-0.054676055908203125,3.495842218399048,0.34287431836128235
1712251717623220500,6.046220458984375,-0.777796745300293,-1.2153000831604004,0.8221548199653625
1712251717641993500,6.064993408203125,0.39624977111816406,-1.9363514184951782,0.17109708487987518
1712251717660766700,6.0837666015625,0.5378055572509766,-2.0515451431274414,-0.071439728140831
1712251717679540000,6.1025400390625,0.1669321060180664,-2.2277779579162598,-0.2929934859275818
1712251717698313200,6.121313232421875,-0.0582427978515625,-2.088925838470459,-0.354689359664917
1712251717717086200,6.140086181640625,0.11212635040283203,-0.13668441772460938,0.16528761386871338
1712251717735859500,6.158859375,-0.1295490264892578,2.044153928756714,-1.6424620151519775
1712251717754632700,6.1776328125,0.3002128601074219,2.171261787414551,0.34368225932121277
1712251717773406000,6.196406005859375,-0.44810009002685547,-0.4904991388320923,0.7627640962600708
1712251717792179000,6.215178955078125,-0.13932323455810547,-1.970371961593628,-1.7115899324417114
1712251717810952200,6.2339521484375,-0.4162750244140625,-0.3278472125530243,-0.7773919701576233
1712251717829725400,6.252725341796875,-0.13907527923583984,0.7276217937469482,0.2949325144290924
1712251717848498400,6.27149853515625,0.27300167083740234,1.6687347888946533,2.531890869140625
1712251717867271700,6.290271728515625,-0.7441825866699219,1.8193840980529785,3.4463555812835693
1712251717886045000,6.309044921875,-0.341217041015625,0.13340893387794495,2.1629300117492676
1712251717904818200,6.327818115234375,4.330059051513672,-0.38794445991516113,0.9129236936569214
1712251717923591400,6.34659130859375,15.423940658569336,-2.6752443313598633,-2.520444869995117
1712251717942364400,6.365364501953125,4.970780372619629,-1.1946852207183838,-3.015847682952881
1712251717961137700,6.3841376953125,-0.10842514038085938,-2.5449249744415283,-5.494619369506836
1712251717979911000,6.402910888671875,-4.240838527679443,-2.3174819946289062,3.2420132160186768
1712251717998684000,6.421683837890625,-4.24757194519043,-0.8407825231552124,5.054998397827148
1712251718017457200,6.44045703125,1.046335220336914,0.6872066855430603,-0.2849576473236084
1712251718036230400,6.45923046875,6.768381118774414,-0.45821917057037354,-0.8991388082504272
1712251718055003600,6.478003662109375,7.023507118225098,1.157366394996643,1.763230323791504
1712251718073776600,6.496776611328125,6.588645935058594,0.9712226986885071,1.7761790752410889
1712251718092550000,6.5155498046875,4.899847984313965,0.843258261680603,2.369441509246826
1712251718111323100,6.5343232421875,4.693138122558594,0.6989842653274536,1.0928806066513062
1712251718130096400,6.553096435546875,6.211607933044434,0.5225644111633301,-0.5076603889465332
1712251718148869400,6.571869384765625,6.2494401931762695,0.5725917816162109,-2.1764986515045166
1712251718167642600,6.590642578125,3.599943161010742,-1.2443917989730835,-1.9252901077270508
1712251718186415900,6.609415771484375,-3.291409492492676,-3.0908617973327637,-1.900536298751831
1712251718205189000,6.628189208984375,-9.813725471496582,-4.374205112457275,-3.0185353755950928
1712251718223962000,6.646962158203125,-14.779377937316895,-3.868921995162964,-6.2131524085998535
1712251718242735400,6.6657353515625,-11.835233688354492,-2.529280185699463,-2.629443883895874
1712251718261508600,6.684508544921875,-11.397720336914062,-1.5737916231155396,1.9076690673828125
1712251718280281600,6.703281494140625,-9.73352336883545,-3.2122490406036377,-0.5267002582550049
1712251718299054800,6.722054931640625,-11.785656929016113,-4.721909999847412,-2.783268928527832
1712251718317828000,6.740828125,-9.544069290161133,-3.835674524307251,-2.6029133796691895
1712251718336601300,6.759601318359375,-7.318975925445557,-2.2263615131378174,-3.6541693210601807
1712251718355374600,6.77837451171875,-5.974808216094971,-2.4556515216827393,-2.462768793106079
1712251718374147600,6.797147705078125,-3.857851982116699,-1.7647771835327148,-1.0362106561660767
1712251718392920800,6.8159208984375,-4.103236675262451,-1.3407049179077148,-0.10841763019561768
1712251718411694000,6.834694091796875,-2.997164726257324,0.6038310527801514,0.540784478187561
1712251718430467000,6.853467041015625,-1.606945514678955,-0.36720526218414307,1.0675806999206543
1712251718449240300,6.872240234375,1.4478635787963867,-0.9053652882575989,0.43918633460998535
1712251718468013600,6.891013671875,0.6041879653930664,-0.5440136194229126,0.5487451553344727
1712251718486786800,6.909786865234375,3.238278388977051,0.9304090738296509,1.8441965579986572
1712251718505559800,6.928559814453125,3.6355648040771484,0.8386163711547852,3.5745580196380615
1712251718524333000,6.9473330078125,2.7272825241088867,-0.758945107460022,2.6770708560943604
1712251718543106300,6.966106201171875,4.147324562072754,-1.6038894653320312,-1.0914658308029175
1712251718561879600,6.984879638671875,6.27241325378418,-0.3283432722091675,-1.928002119064331
1712251718580652500,7.003652587890625,7.613476753234863,0.2613433599472046,-1.2881773710250854
1712251718599425800,7.02242578125,-1.3337907791137695,3.2430686950683594,3.980297327041626
1712251718618199000,7.041198974609375,-6.156394004821777,2.8314096927642822,0.9213487505912781
1712251718636972300,7.05997216796875,2.94167423248291,-0.5089393854141235,3.1455066204071045
1712251718655745300,7.078745361328125,-2.2020111083984375,-0.3212856948375702,-2.0159971714019775
1712251718674518500,7.0975185546875,-1.0150222778320312,0.4147639274597168,-0.9850754141807556
1712251718693291800,7.116291748046875,3.8678817749023438,0.33614110946655273,1.0682553052902222
1712251718712065000,7.13506494140625,0.7475271224975586,-0.053870365023612976,0.9076882600784302
1712251718730838000,7.153838134765625,0.38600826263427734,-1.1643363237380981,-0.02401253581047058
1712251718749611300,7.172611328125,-0.050574302673339844,0.6877579689025879,0.4200900197029114
1712251718768384500,7.191384521484375,1.3345088958740234,0.17288514971733093,0.34151309728622437
1712251718787157800,7.21015771484375,2.681079864501953,0.06577244400978088,-0.47716760635375977
1712251718805931000,7.228930908203125,3.8637819290161133,-0.20635269582271576,1.0258088111877441
1712251718824704000,7.2477041015625,5.388668060302734,1.6434080600738525,2.2309176921844482
1712251718843477200,7.266477294921875,8.713281631469727,1.1558908224105835,0.036740124225616455
1712251718862250500,7.28525048828125,11.410335540771484,1.7814457416534424,1.2331428527832031
1712251718881023500,7.3040234375,11.805910110473633,1.354557752609253,2.302992343902588
1712251718899796700,7.322796630859375,9.466543197631836,0.8735023736953735,-0.4948209226131439
1712251718918570000,7.341570068359375,8.353057861328125,-0.5264110565185547,-1.8823517560958862
1712251718937343200,7.36034326171875,7.46971321105957,-0.6663164496421814,-1.1377387046813965
1712251718956116500,7.379116455078125,5.668509483337402,-1.7927358150482178,-1.8289823532104492
1712251718974889500,7.397889404296875,3.677149772644043,-2.27333402633667,-1.5792922973632812
1712251718993662700,7.416662841796875,1.2632169723510742,-2.7834653854370117,-2.4780735969543457
1712251719012436000,7.43543603515625,-0.8244409561157227,-3.0479204654693604,-3.0164074897766113
1712251719031209000,7.454208984375,-3.690434455871582,-3.4078640937805176,-1.6907426118850708
1712251719049982200,7.472982177734375,-7.704473972320557,-3.675051212310791,-2.305997371673584
1712251719068755500,7.49175537109375,-11.288796424865723,-3.644646406173706,-1.9924185276031494
1712251719087528700,7.51052880859375,-12.920575141906738,-3.334689140319824,-1.5944674015045166
1712251719106301700,7.5293017578125,-14.069890975952148,-3.019038677215576,-3.1592602729797363
1712251719125075000,7.548074951171875,-12.669536590576172,-2.1495044231414795,-1.36189866065979
1712251719143848200,7.56684814453125,-10.471413612365723,-2.173522472381592,0.6979442834854126
1712251719162621400,7.585621337890625,-8.972644805908203,-2.5938868522644043,-0.6276450157165527
1712251719181394700,7.604394775390625,-10.293373107910156,-2.420152187347412,-1.150815486907959
1712251719200167700,7.623167724609375,-9.211882591247559,-1.5334227085113525,0.46196067333221436
1712251719218941000,7.64194091796875,-8.579085350036621,-2.636690855026245,2.5773324966430664
1712251719237714200,7.660714111328125,-6.920022010803223,-2.8180418014526367,0.008977890014648438
1712251719256487200,7.679487060546875,-4.9755353927612305,-2.0186243057250977,-1.4041669368743896
1712251719275260400,7.698260498046875,-2.822629451751709,-1.0436289310455322,-0.39730048179626465
1712251719294033700,7.71703369140625,-2.0195746421813965,-2.5107662677764893,2.355715751647949
1712251719312807000,7.735806884765625,-1.9256715774536133,-2.3780341148376465,0.25001752376556396
1712251719331580200,7.754580078125,-0.6540632247924805,-1.4275155067443848,-1.9559811353683472
1712251719350353200,7.773353271484375,1.6052627563476562,-0.5425939559936523,0.01543271541595459
1712251719369126400,7.79212646484375,2.068216323852539,-1.201811671257019,0.3078892230987549
1712251719387899600,7.810899658203125,1.1678647994995117,-1.512449860572815,-2.159420967102051
1712251719406673000,7.8296728515625,0.8370656967163086,-0.7147513031959534,-1.504619836807251
1712251719425446000,7.84844580078125,2.0459117889404297,-0.12816917896270752,1.206860065460205
1712251719444219100,7.86721923828125,2.9565515518188477,-0.2850758135318756,1.0087299346923828
1712251719462992400,7.885992431640625,3.1349287033081055,0.3617074191570282,-0.4586030840873718
1712251719481765600,7.904765625,4.784482002258301,0.4882587194442749,0.4036880135536194
1712251719500538600,7.92353857421875,5.853955268859863,0.612601101398468,1.4927978515625
1712251719519312000,7.942311767578125,4.834697723388672,0.24437952041625977,-1.3267560005187988
1712251719538085000,7.961085205078125,3.2745447158813477,-0.4309050440788269,-3.4313414096832275
1712251719556858400,7.9798583984375,3.7149343490600586,-0.22013264894485474,-1.6319189071655273
1712251719575631400,7.99863134765625,-7.024693489074707,2.032233953475952,-1.0612465143203735
1712251719594404600,8.017404541015624,4.802737236022949,-0.8490371108055115,-0.4224161207675934
1712251719613177900,8.036177734375,-7.70487642288208,1.1434215307235718,3.9770939350128174
1712251719631951000,8.054951171875,-4.434150218963623,-4.843299388885498,-6.064604759216309
1712251719650724000,8.07372412109375,10.333093643188477,2.185966730117798,3.825061321258545
1712251719669497300,8.092497314453125,0.38893699645996094,-0.7773005962371826,-1.3253860473632812
1712251719688270600,8.1112705078125,1.0752954483032227,0.7261197566986084,0.34088975191116333
1712251719707043800,8.1300439453125,1.7064704895019531,-0.8330215215682983,1.8430736064910889
1712251719725817000,8.148817138671875,-2.1722583770751953,0.14386622607707977,-0.6333135962486267
1712251719744590000,8.167590087890625,1.7519330978393555,-0.038157522678375244,-0.20768219232559204
1712251719763363300,8.18636328125,0.9952125549316406,0.8587485551834106,-0.3226702809333801
1712251719782136600,8.205136474609375,1.0897769927978516,-0.29889148473739624,0.7535244226455688
1712251719800909600,8.22390966796875,2.8442087173461914,-0.3228508234024048,-0.9226991534233093
1712251719819682800,8.242682861328126,3.028355598449707,0.9268966913223267,0.2200779914855957
1712251719838456000,8.2614560546875,4.749210357666016,0.8462355136871338,2.096268653869629
1712251719857229300,8.280229248046876,6.349728584289551,1.362603783607483,1.3532428741455078
1712251719876002600,8.29900244140625,7.226282119750977,1.020645260810852,0.8881024718284607
1712251719894775600,8.317775634765624,8.23695182800293,1.0092357397079468,0.01761336252093315
1712251719913548800,8.336548828125,8.661049842834473,0.9325726628303528,0.13228461146354675
1712251719932322000,8.355322021484374,7.202954292297363,0.7583601474761963,-0.04968619346618652
1712251719951095300,8.37409521484375,5.364529609680176,-0.4452841877937317,0.0782046914100647
1712251719969868300,8.392868408203125,2.8058032989501953,-0.45975327491760254,-2.1474194526672363
1712251719988641500,8.4116416015625,1.7526464462280273,-0.8395997285842896,-2.245388984680176
1712251720007414800,8.430414794921875,0.6464748382568359,-1.4806841611862183,-0.43953225016593933
1712251720026188000,8.44918798828125,-0.7117958068847656,-1.2883341312408447,-0.17911559343338013
1712251720044961000,8.4679609375,-2.19779109954834,-0.9776335954666138,-2.0023531913757324
1712251720063734300,8.486734375,-2.686697006225586,-1.158453106880188,-3.283994674682617
1712251720082507500,8.505507568359375,-2.997476577758789,-1.5642116069793701,-2.7652430534362793
1712251720101280800,8.52428076171875,-2.7416610717773438,-1.7684723138809204,-1.0045260190963745
1712251720120054000,8.543053955078125,-4.180359363555908,-1.6557934284210205,0.5766056776046753
1712251720138827000,8.561826904296876,-6.495516777038574,-2.015864849090576,-0.09432113170623779
1712251720157600300,8.580600341796876,-7.765219688415527,-1.8540623188018799,-1.7304699420928955
1712251720176373500,8.59937353515625,-7.1080193519592285,-1.3238986730575562,-0.9390703439712524
1712251720195146500,8.618146484375,-5.454747676849365,-0.49767303466796875,0.9751912355422974
1712251720213919700,8.636919677734374,-4.2517194747924805,-1.1782175302505493,1.7918968200683594
1712251720232693000,8.65569287109375,-4.005025863647461,-1.4799201488494873,0.8187642097473145
1712251720251466200,8.67446630859375,-5.056583404541016,-2.3869876861572266,-3.113335132598877
1712251720270239500,8.693239501953125,-6.298635005950928,-2.3993685245513916,-3.4912030696868896
1712251720289012500,8.712012451171875,-7.071872234344482,-1.8670262098312378,0.39526355266571045
1712251720307785700,8.73078564453125,-8.076554298400879,-1.9549885988235474,2.9144277572631836
1712251720326559000,8.74955908203125,-8.182215690612793,-1.8154865503311157,0.9603585004806519
1712251720345332200,8.768332275390625,-7.506291389465332,-2.196941375732422,-2.3055787086486816
1712251720364105200,8.787105224609375,-6.146698474884033,-2.1270029544830322,-2.167781352996826
1712251720382878500,8.80587841796875,-5.112398147583008,-1.3790048360824585,0.7480060458183289
1712251720401651700,8.824651611328125,-4.916765213012695,-0.830276370048523,1.3873481750488281
1712251720420425000,8.843425048828125,-3.8717193603515625,-1.2490811347961426,-0.6873937845230103
1712251720439198000,8.862197998046875,-1.66827392578125,-1.0537256002426147,0.9526619911193848
1712251720457971200,8.88097119140625,0.20569419860839844,-0.7052559852600098,2.895589828491211
1712251720476744400,8.899744384765626,0.14155960083007812,-0.4691511392593384,0.23461061716079712
1712251720495517700,8.918517578125,0.5473775863647461,-1.696148157119751,-3.3721542358398438
1712251720514291000,8.937291015625,1.6402969360351562,-1.2491340637207031,-0.11854269355535507
1712251720533064000,8.95606396484375,2.2885332107543945,0.31240785121917725,1.9650518894195557
1712251720551837200,8.974837158203124,3.691409111022949,0.5181466341018677,-0.0257452130317688
1712251720570610400,8.9936103515625,5.488574028015137,-1.442737340927124,-2.5248382091522217
1712251720589383700,9.0123837890625,6.317262649536133,-0.8737138509750366,-0.9130011796951294
1712251720608157000,9.031156982421875,6.762103080749512,0.04306180775165558,0.156290203332901
1712251720626930000,9.049929931640625,4.871341705322266,5.136731147766113,1.489542841911316
1712251720645703200,9.068703125,-13.487984657287598,-6.187698841094971,2.7395615577697754
1712251720664476400,9.087476318359375,13.735483169555664,-1.8647334575653076,-8.654479026794434
1712251720683249400,9.10624951171875,-3.34381103515625,-0.796178936958313,-0.7076413035392761
1712251720702022700,9.125022705078125,5.716187477111816,0.4390169680118561,0.17119447886943817
1712251720720796000,9.1437958984375,-0.05140972137451172,0.9209389686584473,-0.015696493908762932
1712251720739569200,9.162569091796875,0.41180992126464844,0.9119182825088501,0.019181562587618828
1712251720758342400,9.18134228515625,-0.30595970153808594,0.2564179301261902,0.7006288766860962
1712251720777115600,9.20011572265625,-0.07327651977539062,-1.0466934442520142,-0.7764695286750793
1712251720795888600,9.218888671875,1.195551872253418,-0.2452094852924347,-0.16211093962192535
1712251720814662000,9.237661865234376,0.14957714080810547,-0.07218813896179199,0.022217242047190666
1712251720833435100,9.25643505859375,1.5054502487182617,-0.14861425757408142,1.1916890144348145
1712251720852208400,9.27520849609375,5.081719398498535,0.35659024119377136,1.5851092338562012
1712251720870981400,9.2939814453125,8.032864570617676,0.7985293865203857,2.343122959136963
1712251720889754600,9.312754638671874,10.227023124694824,1.3458071947097778,2.5456314086914062
1712251720908527900,9.33152783203125,11.70858383178711,0.7402025461196899,0.7628069519996643
1712251720927301000,9.350301025390625,13.014541625976562,0.6393478512763977,-1.5647985935211182
1712251720946074000,9.36907421875,12.888644218444824,-0.15667468309402466,-2.0263538360595703
1712251720964847400,9.387847412109375,9.189921379089355,-0.876906156539917,-2.0390536785125732
1712251720983620600,9.40662060546875,4.357478141784668,-2.364736557006836,-1.6940152645111084
1712251721002393900,9.425393798828125,2.002997398376465,-2.0796310901641846,0.9297339916229248
1712251721021167000,9.4441669921875,-0.9603843688964844,-1.743138074874878,0.16505825519561768
1712251721039940000,9.462940185546875,-0.9416408538818359,-1.7207244634628296,0.0545196533203125
1712251721058713300,9.48171337890625,-0.2055826187133789,-2.220226287841797,0.09945333003997803
1712251721077486600,9.500486572265626,-0.4726295471191406,-1.9711999893188477,0.8819992542266846
1712251721096259800,9.519259765625,-3.2884135246276855,-2.5015692710876465,0.3464449644088745
1712251721115032800,9.53803271484375,-7.536769866943359,-3.3989458084106445,-0.8590376973152161
1712251721133806000,9.55680615234375,-11.048656463623047,-3.755932092666626,-2.0933120250701904
1712251721152579300,9.575579345703124,-11.890706062316895,-3.3282105922698975,-3.4842734336853027
1712251721171352600,9.5943525390625,-10.081710815429688,-2.447143793106079,-3.5819106101989746
1712251721190125800,9.613125732421874,-5.999185085296631,-1.9393057823181152,-1.8991020917892456
1712251721208898800,9.63189892578125,-4.960583686828613,-1.3376061916351318,-1.134417176246643
1712251721227672000,9.650672119140625,-6.5171217918396,-2.1175179481506348,-2.616969585418701
1712251721246445300,9.6694453125,-7.762845039367676,-2.6582164764404297,-3.8497822284698486
1712251721265218600,9.688218505859375,-7.868655204772949,-2.94498872756958,-3.742708206176758
1712251721283991600,9.706991455078125,-7.169456481933594,-2.881040096282959,-2.653398036956787
1712251721302764800,9.725764892578125,-5.24399471282959,-2.290286064147949,-0.8009783029556274
1712251721321538000,9.7445380859375,-3.74924373626709,-1.6672725677490234,0.29285216331481934
1712251721340311300,9.763311279296875,-3.7002968788146973,-1.408675193786621,0.3687703609466553
1712251721359084500,9.78208447265625,-5.013593673706055,-1.8810927867889404,-0.9905170202255249
1712251721377857500,9.800857421875,-3.9941177368164062,-1.9443573951721191,-0.6910918951034546
1712251721396630800,9.819630859375,-2.8496241569519043,-1.6248724460601807,1.588680386543274
1712251721415404000,9.838404052734376,-3.944286346435547,-2.2479758262634277,-1.1134594678878784
1712251721434177300,9.85717724609375,-3.396176815032959,-1.9402034282684326,-2.9568567276000977
1712251721452950300,9.8759501953125,1.1094074249267578,-0.6030009984970093,-0.7081983089447021
1712251721471723500,9.8947236328125,4.0874738693237305,0.1466611623764038,0.6729070544242859
1712251721490496800,9.913496826171874,2.7094058990478516,-1.2721130847930908,-0.05577555298805237
1712251721509270000,9.93227001953125,0.914484977722168,-0.24032044410705566,1.753434181213379
1712251721528043000,9.95104296875,1.7392940521240234,0.8985189199447632,1.2990448474884033
1712251721546816300,9.969816162109375,4.753229141235352,0.8096806406974792,-0.5104719996452332
1712251721565589500,9.988589599609375,6.053638458251953,0.2529880404472351,-2.312030076980591
1712251721584362800,10.00736279296875,3.76840877532959,-0.9554665088653564,-4.11705207824707
1712251721603136000,10.026135986328125,1.547689437866211,0.37410253286361694,-0.8664275407791138
1712251721621909000,10.044908935546875,19.529788970947266,1.0791059732437134,0.9854662418365479
1712251721640682200,10.06368212890625,11.911194801330566,9.828225135803223,17.032136917114258
1712251721659455500,10.08245556640625,-19.043750762939453,-8.794320106506348,-4.5554704666137695
1712251721678228700,10.101228759765625,18.609498977661133,2.018057107925415,0.05686849355697632
1712251721697001700,10.120001708984375,2.7287111282348633,0.08025839924812317,-1.7691500186920166
1712251721715775000,10.13877490234375,-0.4219026565551758,0.25611960887908936,-0.7083799839019775
1712251721734548200,10.15754833984375,0.7274484634399414,0.7604730129241943,2.8600263595581055
1712251721753321500,10.176321533203126,1.062765121459961,-1.4112027883529663,2.300471782684326
1712251721772094500,10.195094482421876,-0.15733051300048828,0.025923877954483032,0.05765925347805023
1712251721790867700,10.21386767578125,0.6697330474853516,0.058216579258441925,-0.018103592097759247
1712251721809641000,10.232640869140624,1.1973018646240234,0.11071468144655228,-0.0061247944831848145
1712251721828414200,10.251414306640624,0.45903682708740234,0.11547993868589401,0.021647952497005463
1712251721847187500,10.2701875,-0.04418754577636719,0.04808967560529709,-0.007149234414100647
1712251721865960400,10.28896044921875,0.4384193420410156,0.056951917707920074,-0.015972159802913666
1712251721884733700,10.307733642578125,1.1322755813598633,0.1162070706486702,-0.04456331580877304
1712251721903507000,10.3265068359375,0.5444393157958984,0.11335835605859756,0.009826965630054474
1712251721922280200,10.3452802734375,0.062409400939941406,0.06067929416894913,-0.011788740754127502
1712251721941053400,10.364053466796875,0.3963956832885742,0.06764233112335205,-0.003912746906280518
1712251721959826400,10.382826416015625,0.9619646072387695,0.1024908497929573,-0.03949718922376633
1712251721978599700,10.401599609375,0.6467447280883789,0.10159333795309067,0.0032125115394592285
1712251721997373000,10.420373046875,0.13093090057373047,0.08013217896223068,0.014981143176555634
1712251722016146200,10.439146240234376,0.36429309844970703,0.06851188093423843,-0.015681155025959015
1712251722034919200,10.457919189453126,0.8323030471801758,0.08896725624799728,-0.04875995218753815
1712251722053692400,10.4766923828125,0.675166130065918,0.10930570214986801,0.02509881556034088
1712251722072465700,10.495465576171876,0.18534374237060547,0.05471690744161606,0.003288969397544861
1712251722091239000,10.514239013671874,0.3205833435058594,0.06489156186580658,-0.020214900374412537
1712251722110012000,10.533011962890624,0.7554340362548828,0.0851503536105156,-0.03893060237169266
1712251722128785200,10.55178515625,0.6774702072143555,0.1051129549741745,-0.015171051025390625
1712251722147558400,10.570558349609374,0.25195980072021484,0.0719679668545723,0.013304539024829865
1712251722166331600,10.58933154296875,0.3105154037475586,0.05384860187768936,-0.01026058942079544
1712251722185105000,10.60810498046875,0.6667146682739258,0.08377805352210999,-0.02433408796787262
1712251722203878100,10.626878173828125,0.6632175445556641,0.10095705091953278,-0.026881292462348938
1712251722222651100,10.645651123046875,0.29098033905029297,0.07037607580423355,-0.014846496284008026
1712251722241424400,10.66442431640625,0.3035402297973633,0.06514563411474228,-0.017033271491527557
1712251722260197600,10.68319775390625,0.564295768737793,0.0786229819059372,-0.02779146283864975
1712251722278971000,10.701970947265625,-1.4944992065429688,0.23312941193580627,-0.4200323522090912
1712251722297744100,10.720744140625,0.5932474136352539,0.08342339098453522,0.0353536531329155
1712251722316517000,10.73951708984375,0.3316488265991211,0.056169576942920685,-0.006202727556228638
1712251722335290400,10.758290283203126,0.3988523483276367,0.04591351002454758,-0.008406408131122589
